Folder: PVtools/data/XRD_data/2018_8-7XRD

Note: README.md
![alt text](data/img/intro_pic.jpg)

# PVtools
A collection of useful tools for thin film photovoltaic research

File: 2018_8-7 FAGACs_1p25FASCN001_exported.xy
'Id: "" Comment: "Integrate frame 2018_8-7 FAGACs_1p25FASCN001.gfrmwith cursor Full Frame Cursor #2" Operator: "MAF user" Anode: "Cu" Scantype: "TwoTheta" TimePerStep: "90"
10.74 7.04168
10.9 5.3373
11.06 4.62688
11.22 4.73007
11.38 4.62423
11.54 6.87783
11.7 4.85624
11.86 4.78365
12.02 4.64204
12.18 4.54033
12.34 4.69069
12.5 4.79919
12.66 4.98078
12.82 6.03629
12.98 10.7074
13.14 8.83923
13.3 5.2308
13.46 4.95696
13.62 4.73625
13.78 4.73809
13.94 4.80519
14.1 4.76538
14.26 4.76451
14.42 4.98936
14.58 5.87738
14.74 27.3267
14.9 8.25429
15.06 4.93792
15.22 4.85223
15.38 4.83537
15.54 4.74224
15.7 4.82618
15.86 4.78159
16.02 4.85162
16.18 4.66957
16.34 4.81742
16.5 4.82125
16.66 4.97586
16.82 4.95719
16.98 4.91294
17.14 4.92535
17.3 4.92929
17.46 4.9545
17.62 5.01489
17.78 5.07566
17.94 5.21278
18.1 5.14778
18.26 5.18711
18.42 5.17454
18.58 5.24107
18.74 5.28118
18.9 5.32422
19.06 5.51015
19.22 5.46633
19.38 5.66823
19.54 5.67201
19.7 5.742
19.86 5.83325
20.02 5.86266
20.18 5.87811
20.34 5.96376
20.5 6.0358
20.66 6.27694
20.82 9.4095
20.98 10.5483
21.14 6.72543
21.3 6.39819
21.46 6.4434
21.62 6.44966
21.78 6.52333
21.94 6.59633
22.1 6.6694
22.26 6.65892
22.42 6.71792
22.58 7.05532
22.74 6.82799
22.9 6.92014
23.06 7.05361
23.22 7.07099
23.38 6.99267
23.54 7.00398
23.7 7.12544
23.86 7.11197
24.02 7.14499
24.18 7.03763
24.34 7.15702
24.5 7.19386
24.66 7.0648
24.82 7.0712
24.98 7.13875
25.14 7.18827
25.3 7.28513
25.46 8.89526
25.62 7.33856
25.78 7.30543
25.94 7.60527
26.1 7.36017
26.26 7.24877
26.42 7.22054
26.58 7.18284
26.74 7.06544
26.9 7.03915
27.06 7.2293
27.22 7.12334
27.38 7.17568
27.54 7.2172
27.7 7.19192
27.86 7.1703
28.02 7.2495
28.18 7.2351
28.34 7.19867
28.5 7.32203
28.66 7.17472
28.82 7.2789
28.98 7.40056
29.14 8.029
29.3 11.7836
29.46 26.818
29.62 9.62928
29.78 7.18809
29.94 7.18989
30.1 7.08963
30.26 7.03482
30.42 7.02519
30.58 6.89947
30.74 6.83749
30.9 6.73056
31.06 6.87993
31.22 6.67496
31.38 6.77769
31.54 6.65523
31.7 6.76181
31.86 6.61658
32.02 6.60533
32.18 6.58362
32.34 6.55516
32.5 6.66778
32.66 6.64576
32.82 7.3699
32.98 12.3531
33.14 8.0398
33.3 6.41742
33.46 6.24701
33.62 6.19394
33.78 6.1875
33.94 6.08118
34.1 6.05785
34.26 6.14715
34.42 6.18611
34.58 5.99799
34.74 5.87461
34.9 5.96116
35.06 5.72973
35.22 5.67465
35.38 5.70416
35.54 5.79687
35.7 5.6649
35.86 5.69443
36.02 7.21668
36.18 6.92164
36.34 5.6372
36.5 5.3741
36.66 5.40347
36.82 5.28911
36.98 5.37372
37.14 5.2976
37.3 5.25632
37.46 5.15323
37.62 5.22902
37.78 5.09882
37.94 5.14804
38.1 5.19582
38.26 5.03346
38.42 5.06524
38.58 5.14379
38.74 5.23322
38.9 5.52953
39.06 7.19103
39.22 7.24792
39.38 5.51098
39.54 4.97413
39.7 5.06202
39.86 4.9722
40.02 5.038
40.18 4.83979
40.34 4.9599
40.5 4.82417
40.66 4.90128
40.82 4.83806
40.98 4.81302
41.14 4.79947
41.3 4.81899
41.46 4.78093
41.62 5.08416
41.78 6.39466
41.94 8.08991
42.1 5.47369
42.26 4.85895
42.42 4.87279
42.58 4.75274
42.74 4.92761
42.9 4.81342
43.06 4.80412
43.22 4.81598
43.38 4.76966
43.54 4.78548
43.7 4.74198
43.86 4.81075
44.02 4.84094
44.18 4.92677
44.34 5.06097
44.5 6.80847
44.66 5.92933
44.82 4.98338
44.98 4.86995
45.14 4.63487
45.3 4.736
45.46 4.5536
45.62 4.69825
45.78 4.64963
45.94 4.73993
46.1 4.48047
46.26 5.75096
46.42 5.67418
46.58 4.79237
46.74 4.56023
46.9 4.68918
47.06 4.75917
47.22 4.51343
47.38 4.3292
47.54 4.42899
47.7 4.3731
47.86 4.56977
48.02 4.31192
48.18 4.13957
48.34 4.37113
48.5 4.34448
48.66 4.2542
48.82 4.22861
48.98 4.27394
49.14 4.23652
49.3 4.18481
49.46 4.24997
49.62 4.35078
49.78 4.17881
49.94 4.2709
50.1 4.11024
50.26 4.30887
50.42 4.3303
50.58 4.23172
50.74 4.28255
50.9 4.12062
51.06 4.18558
51.22 4.12065
51.38 4.34209
51.54 4.15872
51.7 4.77098
51.86 4.85419
52.02 4.23967
52.18 4.19522
52.34 4.17163
52.5 4.34844
52.66 4.42745
52.82 4.87667
52.98 4.66264
53.14 4.41206
53.3 4.18967
53.46 4.18447
53.62 4.21369
53.78 4.14819
53.94 4.16647
54.1 4.42437
54.26 4.23776
54.42 4.10822
54.58 4.10686
54.74 4.1396
54.9 4.12638
55.06 4.17281
55.22 4.06064
55.38 4.05313
55.54 4.51811
55.7 4.33846
55.86 4.22185
56.02 4.35672
56.18 4.66834
56.34 4.61446
56.5 4.62407
56.66 5.27029
56.82 5.84499
56.9 4.38832

File: 2018_8-7 FAGACs_1p25PEAI001_exported.xy
'Id: "" Comment: "Integrate frame 2018_8-7 FAGACs_1p25PEAI001.gfrmwith cursor Full Frame Cursor #3" Operator: "MAF user" Anode: "Cu" Scantype: "TwoTheta" TimePerStep: "90"
10.74 6.34201
10.9 5.16358
11.06 5.0736
11.22 4.70033
11.38 4.50784
11.54 4.78591
11.7 4.6347
11.86 4.76591
12.02 4.77416
12.18 4.83902
12.34 4.69612
12.5 5.02214
12.66 4.78073
12.82 4.92628
12.98 4.75119
13.14 4.80927
13.3 4.79369
13.46 4.92205
13.62 4.99056
13.78 5.08111
13.94 4.98527
14.1 5.07161
14.26 5.26676
14.42 5.54676
14.58 6.79417
14.74 10.0306
14.9 9.6775
15.06 6.56223
15.22 5.37983
15.38 5.14895
15.54 5.0153
15.7 4.95457
15.86 4.77731
16.02 4.78563
16.18 4.85881
16.34 4.99392
16.5 5.01507
16.66 4.90119
16.82 5.06173
16.98 5.02046
17.14 5.03923
17.3 5.07605
17.46 5.06352
17.62 5.12689
17.78 5.14276
17.94 5.23545
18.1 5.30977
18.26 5.37292
18.42 5.28774
18.58 5.48991
18.74 5.56806
18.9 5.52097
19.06 5.57799
19.22 5.70741
19.38 5.73211
19.54 5.8091
19.7 5.8299
19.86 5.91427
20.02 6.0701
20.18 5.94129
20.34 6.15656
20.5 6.31631
20.66 6.73403
20.82 7.77659
20.98 9.11494
21.14 8.26524
21.3 7.10185
21.46 6.88189
21.62 6.72411
21.78 6.71509
21.94 6.76928
22.1 6.76939
22.26 6.87899
22.42 6.95959
22.58 7.08195
22.74 7.16962
22.9 7.0695
23.06 7.10556
23.22 7.29663
23.38 7.44252
23.54 7.41704
23.7 7.37257
23.86 7.35409
24.02 7.31818
24.18 7.44688
24.34 7.33002
24.5 7.46876
24.66 7.41399
24.82 7.49404
24.98 7.53107
25.14 7.63416
25.3 7.80092
25.46 8.22519
25.62 8.2144
25.78 7.77075
25.94 7.70352
26.1 7.47739
26.26 7.50866
26.42 7.63929
26.58 7.55936
26.74 7.54375
26.9 7.53351
27.06 7.49528
27.22 7.53452
27.38 7.54384
27.54 7.64363
27.7 7.47085
27.86 7.41106
28.02 7.63094
28.18 7.52347
28.34 7.57042
28.5 7.64461
28.66 7.65112
28.82 7.80135
28.98 7.82702
29.14 8.2718
29.3 9.35785
29.46 11.6636
29.62 11.5114
29.78 9.13114
29.94 7.86384
30.1 7.57161
30.26 7.30052
30.42 7.22277
30.58 7.24658
30.74 7.17892
30.9 7.1058
31.06 7.23977
31.22 7.04397
31.38 7.17324
31.54 7.18369
31.7 6.97769
31.86 6.90239
32.02 7.09461
32.18 7.07181
32.34 6.93626
32.5 7.01666
32.66 7.25139
32.82 7.83752
32.98 8.9416
33.14 8.96595
33.3 7.70146
33.46 6.94231
33.62 6.81201
33.78 6.48259
33.94 6.42464
34.1 6.33659
34.26 6.3123
34.42 6.18072
34.58 6.21959
34.74 6.13118
34.9 6.03353
35.06 6.08913
35.22 6.12174
35.38 5.84013
35.54 5.92252
35.7 5.99275
35.86 6.10739
36.02 6.40483
36.18 6.79314
36.34 6.39207
36.5 5.96437
36.66 5.63536
36.82 5.61161
36.98 5.47469
37.14 5.52629
37.3 5.38945
37.46 5.42292
37.62 5.46019
37.78 5.1752
37.94 5.25341
38.1 5.24422
38.26 5.30069
38.42 5.21273
38.58 5.29622
38.74 5.01417
38.9 5.20111
39.06 5.10164
39.22 5.13196
39.38 5.04856
39.54 5.07237
39.7 5.2107
39.86 5.39005
40.02 5.20211
40.18 5.24256
40.34 5.11095
40.5 5.32624
40.66 5.05823
40.82 5.10625
40.98 5.16228
41.14 5.16548
41.3 5.29417
41.46 5.33403
41.62 5.4174
41.78 5.93137
41.94 6.58924
42.1 6.65464
42.26 5.85962
42.42 5.43183
42.58 5.18155
42.74 5.01101
42.9 4.96098
43.06 4.95248
43.22 5.13913
43.38 5.03008
43.54 4.91594
43.7 4.93223
43.86 5.09104
44.02 5.00222
44.18 5.05572
44.34 5.2471
44.5 5.70352
44.66 6.00941
44.82 5.54858
44.98 5.2893
45.14 4.95386
45.3 4.77947
45.46 4.7672
45.62 4.64726
45.78 4.83102
45.94 4.65472
46.1 4.79536
46.26 4.5965
46.42 4.6131
46.58 4.69246
46.74 4.59985
46.9 4.69267
47.06 4.64542
47.22 4.69647
47.38 4.65046
47.54 4.6562
47.7 4.57207
47.86 4.59502
48.02 4.56961
48.18 4.46353
48.34 4.53997
48.5 4.50005
48.66 4.50865
48.82 4.47328
48.98 4.49375
49.14 4.39333
49.3 4.44529
49.46 4.40403
49.62 4.41248
49.78 4.52194
49.94 4.36158
50.1 4.34227
50.26 4.39008
50.42 4.3913
50.58 4.32566
50.74 4.471
50.9 4.39231
51.06 4.21008
51.22 4.3272
51.38 4.39562
51.54 4.43257
51.7 4.52614
51.86 4.69971
52.02 4.54415
52.18 4.45062
52.34 4.39805
52.5 4.37308
52.66 4.25641
52.82 4.24213
52.98 4.23205
53.14 4.3993
53.3 4.29222
53.46 4.26305
53.62 4.19224
53.78 4.34054
53.94 4.20826
54.1 4.38112
54.26 4.32756
54.42 4.36541
54.58 4.23831
54.74 4.27874
54.9 4.28474
55.06 4.29543
55.22 4.25694
55.38 4.22478
55.54 4.61222
55.7 4.68819
55.86 4.53095
56.02 4.60871
56.18 4.51407
56.34 4.83375
56.5 5.00651
56.66 4.55331
56.82 5.43755
56.9 6.44684

File: 2018_8-7 FAGACs_2p5FASCN001_exported.xy
'Id: "" Comment: "Integrate frame 2018_8-7 FAGACs_2p5FASCN001.gfrmwith cursor Full Frame Cursor #5" Operator: "MAF user" Anode: "Cu" Scantype: "TwoTheta" TimePerStep: "90"
10.74 6.62255
10.9 5.09657
11.06 4.86109
11.22 4.59448
11.38 4.73504
11.54 4.94889
11.7 4.65489
11.86 4.56581
12.02 4.59578
12.18 4.72555
12.34 4.80078
12.5 4.73979
12.66 4.70746
12.82 4.77911
12.98 4.56178
13.14 4.65641
13.3 4.6966
13.46 4.65678
13.62 4.58044
13.78 4.7913
13.94 4.7788
14.1 4.83144
14.26 4.83999
14.42 5.09953
14.58 7.52811
14.74 44.2867
14.9 6.75321
15.06 4.94775
15.22 4.94038
15.38 4.76943
15.54 4.79074
15.7 4.81589
15.86 4.80565
16.02 4.83809
16.18 4.78531
16.34 4.85893
16.5 4.87978
16.66 4.85665
16.82 4.98912
16.98 4.9895
17.14 5.01124
17.3 5.0593
17.46 4.94393
17.62 5.06721
17.78 5.07155
17.94 5.2447
18.1 5.1039
18.26 5.24588
18.42 5.2989
18.58 5.22758
18.74 5.41173
18.9 5.44127
19.06 5.47397
19.22 5.50706
19.38 5.51361
19.54 5.70408
19.7 5.70362
19.86 5.7517
20.02 5.9792
20.18 5.97314
20.34 6.01888
20.5 6.08194
20.66 6.46686
20.82 11.0981
20.98 9.24744
21.14 6.55875
21.3 6.45139
21.46 6.5335
21.62 6.50782
21.78 6.60024
21.94 6.5978
22.1 6.76413
22.26 6.65231
22.42 6.79639
22.58 7.13016
22.74 7.05696
22.9 7.06758
23.06 6.86886
23.22 7.0295
23.38 7.1028
23.54 7.20572
23.7 7.14386
23.86 7.20104
24.02 7.19918
24.18 7.1384
24.34 7.26522
24.5 7.21909
24.66 7.21709
24.82 7.16687
24.98 7.20668
25.14 7.21805
25.3 8.59741
25.46 8.6009
25.62 7.51629
25.78 7.36318
25.94 7.28191
26.1 7.15083
26.26 7.24351
26.42 7.43868
26.58 7.23496
26.74 7.04845
26.9 7.2274
27.06 7.1662
27.22 7.20653
27.38 7.28578
27.54 7.23793
27.7 7.20419
27.86 7.13795
28.02 7.38638
28.18 7.30187
28.34 7.26494
28.5 7.43541
28.66 7.27147
28.82 7.53507
28.98 7.86852
29.14 9.45122
29.3 31.5112
29.46 26.4539
29.62 9.14559
29.78 7.47685
29.94 7.21656
30.1 7.0946
30.26 7.09036
30.42 7.26764
30.58 7.02249
30.74 6.90369
30.9 6.86825
31.06 6.85991
31.22 6.81049
31.38 6.9843
31.54 6.77965
31.7 6.81262
31.86 6.73537
32.02 6.77492
32.18 6.66809
32.34 6.71648
32.5 6.8117
32.66 7.07812
32.82 10.9118
32.98 11.2965
33.14 7.07594
33.3 6.32298
33.46 6.4331
33.62 6.36044
33.78 6.32511
33.94 6.27603
34.1 6.40819
34.26 6.15842
34.42 6.19265
34.58 6.19645
34.74 6.2299
34.9 6.0447
35.06 6.08711
35.22 5.95749
35.38 5.87427
35.54 5.95259
35.7 5.89974
35.86 6.08624
36.02 7.92388
36.18 6.11807
36.34 5.68462
36.5 5.78408
36.66 5.46592
36.82 5.46323
36.98 5.44175
37.14 5.44247
37.3 5.29879
37.46 5.45476
37.62 5.29176
37.78 5.31298
37.94 5.30525
38.1 5.28754
38.26 5.18806
38.42 5.05864
38.58 5.28779
38.74 5.19323
38.9 5.1544
39.06 5.12116
39.22 5.18393
39.38 5.06333
39.54 4.99796
39.7 5.15255
39.86 4.97577
40.02 5.06985
40.18 5.09111
40.34 4.92868
40.5 5.00006
40.66 4.94159
40.82 4.98696
40.98 5.16732
41.14 5.00717
41.3 5.1071
41.46 5.17341
41.62 5.78123
41.78 8.70347
41.94 6.53015
42.1 5.20225
42.26 5.14514
42.42 5.10464
42.58 5.00191
42.74 4.9015
42.9 4.92955
43.06 4.98711
43.22 4.97015
43.38 5.02264
43.54 4.90585
43.7 4.91125
43.86 4.93978
44.02 4.90312
44.18 5.17539
44.34 6.7997
44.5 7.29198
44.66 5.44671
44.82 5.05678
44.98 4.94323
45.14 5.03205
45.3 4.94194
45.46 4.99887
45.62 4.89424
45.78 5.04324
45.94 4.80576
46.1 4.65556
46.26 4.67659
46.42 4.97152
46.58 4.8401
46.74 4.72914
46.9 5.11985
47.06 4.92765
47.22 4.81284
47.38 4.67662
47.54 4.74289
47.7 4.61605
47.86 4.64315
48.02 4.56994
48.18 4.45817
48.34 4.65265
48.5 4.63573
48.66 4.52499
48.82 4.45467
48.98 4.54896
49.14 4.42774
49.3 4.57981
49.46 4.55678
49.62 4.54894
49.78 4.425
49.94 4.45224
50.1 4.33561
50.26 4.42469
50.42 4.47221
50.58 4.44553
50.74 4.38714
50.9 4.42117
51.06 4.38393
51.22 4.44859
51.38 4.36303
51.54 4.94848
51.7 5.23244
51.86 4.5786
52.02 4.59847
52.18 4.28363
52.34 4.51839
52.5 4.38769
52.66 4.44072
52.82 4.44385
52.98 4.44333
53.14 4.45653
53.3 4.40423
53.46 4.39993
53.62 4.30069
53.78 4.59288
53.94 4.8195
54.1 4.60413
54.26 4.33185
54.42 4.34949
54.58 4.39109
54.74 4.41073
54.9 4.34712
55.06 4.28435
55.22 4.21879
55.38 4.52519
55.54 4.8606
55.7 4.55353
55.86 4.76622
56.02 4.84645
56.18 4.59902
56.34 4.84249
56.5 4.81461
56.66 5.45667
56.82 6.83247
56.9 3.03859

File: 2018_8-7 FAGACs_2p5FASCN_2p5PEAI001_exported.xy
'Id: "" Comment: "Integrate frame 2018_8-7 FAGACs_2p5FASCN_2p5PEAI001.gfrmwith cursor Full Frame Cursor #4" Operator: "MAF user" Anode: "Cu" Scantype: "TwoTheta" TimePerStep: "90"
10.74 6.98285
10.9 5.31726
11.06 5.09733
11.22 4.92914
11.38 4.85446
11.54 4.76482
11.7 4.75493
11.86 4.71758
12.02 4.75845
12.18 4.80187
12.34 4.79415
12.5 4.66571
12.66 4.79469
12.82 4.68943
12.98 4.67602
13.14 4.68317
13.3 4.7675
13.46 4.66904
13.62 4.86266
13.78 4.8177
13.94 4.9459
14.1 4.97146
14.26 5.26166
14.42 5.80536
14.58 12.854
14.74 102.167
14.9 8.25745
15.06 5.5503
15.22 5.24074
15.38 4.90482
15.54 4.93663
15.7 4.95237
15.86 4.94848
16.02 4.90012
16.18 5.02213
16.34 4.93113
16.5 4.90797
16.66 4.94166
16.82 4.89909
16.98 4.98815
17.14 5.01942
17.3 5.14925
17.46 5.20569
17.62 5.17143
17.78 5.16386
17.94 5.21667
18.1 5.25932
18.26 5.38437
18.42 5.26947
18.58 5.5018
18.74 5.34897
18.9 5.53281
19.06 5.5337
19.22 5.65949
19.38 5.73087
19.54 5.78631
19.7 5.91865
19.86 5.97252
20.02 5.97244
20.18 6.06809
20.34 6.17791
20.5 6.21163
20.66 6.70535
20.82 10.7589
20.98 8.60125
21.14 6.49872
21.3 6.53863
21.46 6.75732
21.62 6.6507
21.78 6.69285
21.94 6.6867
22.1 6.83029
22.26 6.89718
22.42 6.95542
22.58 7.1301
22.74 7.46398
22.9 7.12926
23.06 7.25103
23.22 7.30367
23.38 7.22165
23.54 7.36328
23.7 7.2718
23.86 7.16105
24.02 7.36055
24.18 7.14719
24.34 7.27637
24.5 7.40088
24.66 7.36308
24.82 7.42864
24.98 7.27688
25.14 7.58182
25.3 8.37453
25.46 7.76916
25.62 7.33027
25.78 7.26642
25.94 7.4026
26.1 7.15581
26.26 7.40394
26.42 7.20116
26.58 7.29579
26.74 7.30136
26.9 7.40178
27.06 7.31461
27.22 7.33129
27.38 7.41134
27.54 7.32195
27.7 7.4854
27.86 7.48883
28.02 7.45352
28.18 7.56334
28.34 7.559
28.5 7.69528
28.66 7.84654
28.82 8.04694
28.98 8.77333
29.14 12.4277
29.3 70.6682
29.46 31.9248
29.62 8.90044
29.78 7.81547
29.94 7.53699
30.1 7.46638
30.26 7.19808
30.42 7.21984
30.58 7.1557
30.74 7.1159
30.9 6.85236
31.06 7.06418
31.22 6.89761
31.38 6.91815
31.54 6.95278
31.7 6.84403
31.86 6.79593
32.02 6.78686
32.18 6.77442
32.34 6.69841
32.5 6.63522
32.66 7.26773
32.82 12.966
32.98 10.3202
33.14 6.6732
33.3 6.35416
33.46 6.46974
33.62 6.43714
33.78 6.41094
33.94 6.37789
34.1 6.34731
34.26 6.24429
34.42 6.21568
34.58 6.26962
34.74 6.24425
34.9 6.11644
35.06 6.14048
35.22 6.19029
35.38 6.0475
35.54 6.03539
35.7 5.97537
35.86 6.60025
36.02 7.07901
36.18 5.92056
36.34 5.84056
36.5 5.69048
36.66 5.71391
36.82 5.68397
36.98 5.56398
37.14 5.60273
37.3 5.38469
37.46 5.45752
37.62 5.47132
37.78 5.31607
37.94 5.43128
38.1 5.36669
38.26 5.24506
38.42 5.35629
38.58 5.2643
38.74 5.17928
38.9 5.17727
39.06 5.14924
39.22 5.08702
39.38 5.0707
39.54 5.17238
39.7 5.0928
39.86 5.22473
40.02 5.22404
40.18 5.24591
40.34 4.95526
40.5 5.14682
40.66 4.99719
40.82 5.08206
40.98 5.00824
41.14 5.21192
41.3 5.03131
41.46 5.26684
41.62 6.35585
41.78 7.45588
41.94 5.74608
42.1 5.06312
42.26 5.07045
42.42 5.08955
42.58 4.96415
42.74 4.92206
42.9 4.96659
43.06 4.89319
43.22 5.05497
43.38 5.00015
43.54 4.98172
43.7 4.9534
43.86 5.00308
44.02 4.9169
44.18 5.19386
44.34 7.1037
44.5 6.44556
44.66 5.23332
44.82 5.04546
44.98 4.94246
45.14 4.87883
45.3 4.89912
45.46 4.83575
45.62 4.90854
45.78 4.87829
45.94 4.77656
46.1 4.69989
46.26 4.59638
46.42 4.71406
46.58 4.8078
46.74 5.07186
46.9 5.11881
47.06 4.61592
47.22 4.61358
47.38 4.47754
47.54 4.75551
47.7 4.56233
47.86 4.62608
48.02 4.57491
48.18 4.57028
48.34 4.67483
48.5 4.69706
48.66 4.59425
48.82 4.50069
48.98 4.51527
49.14 4.59255
49.3 4.64024
49.46 4.44826
49.62 4.46124
49.78 4.5195
49.94 4.40857
50.1 4.48261
50.26 4.48843
50.42 4.27041
50.58 4.46449
50.74 4.43565
50.9 4.50561
51.06 4.47379
51.22 4.50531
51.38 4.35169
51.54 4.91426
51.7 4.8975
51.86 4.5252
52.02 4.46204
52.18 4.39477
52.34 4.42166
52.5 4.37371
52.66 4.517
52.82 4.50542
52.98 4.36915
53.14 4.46104
53.3 4.24502
53.46 4.36392
53.62 4.42277
53.78 4.66919
53.94 4.60844
54.1 4.45831
54.26 4.28824
54.42 4.37781
54.58 4.36979
54.74 4.41825
54.9 4.27165
55.06 4.33484
55.22 4.32616
55.38 4.42624
55.54 4.81539
55.7 4.59379
55.86 4.68708
56.02 4.97136
56.18 4.78874
56.34 4.40479
56.5 4.9983
56.66 4.35887
56.82 6.3681
56.9 3.64048

File: 2018_8-7 FAGACs_2p5PEAI001_exported.xy
'Id: "" Comment: "Integrate frame 2018_8-7 FAGACs_2p5PEAI001.gfrmwith cursor Full Frame Cursor #6" Operator: "MAF user" Anode: "Cu" Scantype: "TwoTheta" TimePerStep: "90"
10.74 6.43092
10.9 5.16832
11.06 4.94262
11.22 4.89934
11.38 4.8914
11.54 4.89819
11.7 4.7589
11.86 4.98985
12.02 4.96535
12.18 4.89534
12.34 4.82925
12.5 4.87817
12.66 4.69605
12.82 4.84307
12.98 4.88661
13.14 4.8199
13.3 4.82128
13.46 4.8508
13.62 5.07986
13.78 5.08083
13.94 5.18289
14.1 5.27956
14.26 5.23169
14.42 5.82324
14.58 7.57142
14.74 10.649
14.9 9.36745
15.06 6.55215
15.22 5.45568
15.38 5.08451
15.54 5.0952
15.7 4.99349
15.86 4.92744
16.02 4.91737
16.18 4.9953
16.34 5.00988
16.5 5.05252
16.66 5.05692
16.82 5.13677
16.98 4.98942
17.14 5.09367
17.3 5.07516
17.46 5.20811
17.62 5.24552
17.78 5.20753
17.94 5.28492
18.1 5.34011
18.26 5.43987
18.42 5.39625
18.58 5.51654
18.74 5.50678
18.9 5.4563
19.06 5.622
19.22 5.65609
19.38 5.69491
19.54 5.87663
19.7 5.92951
19.86 5.94033
20.02 5.98345
20.18 6.06321
20.34 6.18303
20.5 6.3686
20.66 6.90934
20.82 8.066
20.98 9.04462
21.14 8.04654
21.3 7.06557
21.46 6.83095
21.62 6.76908
21.78 6.76771
21.94 6.68538
22.1 6.80316
22.26 6.99256
22.42 6.96323
22.58 7.29149
22.74 7.18671
22.9 7.3009
23.06 7.21991
23.22 7.3379
23.38 7.43228
23.54 7.45963
23.7 7.48596
23.86 7.45661
24.02 7.3783
24.18 7.38963
24.34 7.44265
24.5 7.4014
24.66 7.40549
24.82 7.40017
24.98 7.48104
25.14 7.51738
25.3 7.79044
25.46 8.30582
25.62 8.03966
25.78 7.73396
25.94 7.52352
26.1 7.50908
26.26 7.57885
26.42 7.49537
26.58 7.41715
26.74 7.58385
26.9 7.61429
27.06 7.48338
27.22 7.56105
27.38 7.38704
27.54 7.55209
27.7 7.52313
27.86 7.45586
28.02 7.3322
28.18 7.4907
28.34 7.52302
28.5 7.56861
28.66 7.66827
28.82 7.69556
28.98 8.05087
29.14 8.58678
29.3 10.101
29.46 12.0394
29.62 11.1167
29.78 8.96225
29.94 7.98636
30.1 7.31124
30.26 7.41786
30.42 7.22351
30.58 7.28361
30.74 7.29375
30.9 7.07915
31.06 7.13407
31.22 7.15299
31.38 7.05922
31.54 6.88226
31.7 6.95324
31.86 7.16706
32.02 7.20758
32.18 6.94964
32.34 7.05331
32.5 7.08907
32.66 7.15048
32.82 8.11838
32.98 9.05738
33.14 8.49181
33.3 7.55506
33.46 6.97065
33.62 6.72003
33.78 6.58064
33.94 6.46011
34.1 6.30094
34.26 6.37327
34.42 6.23568
34.58 6.29072
34.74 5.98841
34.9 6.21918
35.06 6.00832
35.22 6.02454
35.38 6.11339
35.54 5.9483
35.7 5.92839
35.86 6.06621
36.02 6.41005
36.18 6.74791
36.34 6.48395
36.5 6.00035
36.66 5.81365
36.82 5.61873
36.98 5.487
37.14 5.40915
37.3 5.49239
37.46 5.5266
37.62 5.29024
37.78 5.40994
37.94 5.29122
38.1 5.23451
38.26 5.28771
38.42 5.25428
38.58 5.16311
38.74 5.08203
38.9 5.19821
39.06 5.18658
39.22 5.15706
39.38 5.06077
39.54 5.21508
39.7 5.21998
39.86 5.20943
40.02 5.27962
40.18 5.02525
40.34 5.12565
40.5 5.29214
40.66 5.17484
40.82 5.11611
40.98 5.02507
41.14 5.08417
41.3 5.36884
41.46 5.28666
41.62 5.78125
41.78 6.24199
41.94 6.83127
42.1 6.56974
42.26 5.86784
42.42 5.36123
42.58 5.14315
42.74 5.18824
42.9 5.08164
43.06 5.06661
43.22 5.06966
43.38 5.1161
43.54 5.06735
43.7 4.97204
43.86 5.16471
44.02 5.08197
44.18 5.17368
44.34 5.32877
44.5 5.71562
44.66 5.79089
44.82 5.70813
44.98 5.28409
45.14 5.01193
45.3 5.0382
45.46 5.06747
45.62 4.89373
45.78 4.90193
45.94 4.90888
46.1 4.90895
46.26 4.76962
46.42 4.65259
46.58 4.88368
46.74 4.95935
46.9 4.94245
47.06 5.00604
47.22 4.80255
47.38 4.91568
47.54 4.82962
47.7 4.69261
47.86 4.72328
48.02 4.69101
48.18 4.81019
48.34 4.67824
48.5 4.7466
48.66 4.8064
48.82 4.65292
48.98 4.59635
49.14 4.5598
49.3 4.71642
49.46 4.69642
49.62 4.58079
49.78 4.59704
49.94 4.56544
50.1 4.52972
50.26 4.42964
50.42 4.63657
50.58 4.74722
50.74 4.52396
50.9 4.61053
51.06 4.48539
51.22 4.46441
51.38 4.53273
51.54 4.56617
51.7 4.73977
51.86 4.78033
52.02 4.91914
52.18 4.68077
52.34 4.55067
52.5 4.40714
52.66 4.56296
52.82 4.47047
52.98 4.46215
53.14 4.52692
53.3 4.41084
53.46 4.37584
53.62 4.47457
53.78 4.45594
53.94 4.532
54.1 4.4792
54.26 4.54576
54.42 4.62134
54.58 4.48843
54.74 4.44946
54.9 4.3706
55.06 4.33639
55.22 4.44018
55.38 4.34217
55.54 4.89257
55.7 4.61736
55.86 4.50945
56.02 4.78422
56.18 4.89766
56.34 5.06849
56.5 5.43116
56.66 5.84358
56.82 5.91962
56.9 4.72886

File: 2018_8-7 FAGACs_3p75PEAI001_exported.xy
'Id: "" Comment: "Integrate frame 2018_8-7 FAGACs_3p75PEAI001.gfrmwith cursor Full Frame Cursor #7" Operator: "MAF user" Anode: "Cu" Scantype: "TwoTheta" TimePerStep: "90"
10.74 6.51646
10.9 5.28859
11.06 4.82397
11.22 4.74475
11.38 4.85882
11.54 4.63745
11.7 4.95093
11.86 4.94618
12.02 5.04183
12.18 4.67561
12.34 4.93486
12.5 4.82796
12.66 4.9844
12.82 4.84113
12.98 4.74841
13.14 5.0933
13.3 5.01849
13.46 5.08024
13.62 5.09928
13.78 5.26197
13.94 5.45371
14.1 5.6842
14.26 5.98115
14.42 6.55607
14.58 8.28542
14.74 11.2139
14.9 10.3781
15.06 7.28269
15.22 5.73103
15.38 5.36279
15.54 5.189
15.7 5.00655
15.86 5.07955
16.02 5.08164
16.18 5.19178
16.34 5.00965
16.5 5.1093
16.66 5.09369
16.82 5.1272
16.98 5.16947
17.14 5.15373
17.3 5.11324
17.46 5.1695
17.62 5.23703
17.78 5.33704
17.94 5.23995
18.1 5.25784
18.26 5.27972
18.42 5.40766
18.58 5.51837
18.74 5.59846
18.9 5.61857
19.06 5.61122
19.22 5.74741
19.38 5.80768
19.54 5.80914
19.7 5.91807
19.86 5.98313
20.02 5.96213
20.18 6.17774
20.34 6.33348
20.5 6.43335
20.66 6.97654
20.82 8.07
20.98 9.01362
21.14 8.19794
21.3 7.24759
21.46 6.85005
21.62 6.87839
21.78 6.80219
21.94 6.86548
22.1 6.8311
22.26 6.89775
22.42 7.12206
22.58 7.20752
22.74 7.17661
22.9 7.3039
23.06 7.13572
23.22 7.43046
23.38 7.46352
23.54 7.5186
23.7 7.40386
23.86 7.43547
24.02 7.50864
24.18 7.46037
24.34 7.53287
24.5 7.46854
24.66 7.65731
24.82 7.50585
24.98 7.64631
25.14 7.72498
25.3 7.87778
25.46 8.15066
25.62 8.22297
25.78 7.74125
25.94 7.60359
26.1 7.66568
26.26 7.57764
26.42 7.51258
26.58 7.63507
26.74 7.64256
26.9 7.61581
27.06 7.56272
27.22 7.61683
27.38 7.70918
27.54 7.60465
27.7 7.68188
27.86 7.51534
28.02 7.64131
28.18 7.55561
28.34 7.84738
28.5 7.77047
28.66 8.02122
28.82 8.20366
28.98 8.4089
29.14 9.2229
29.3 10.746
29.46 12.4495
29.62 11.8391
29.78 9.56884
29.94 8.24303
30.1 7.76484
30.26 7.58256
30.42 7.41631
30.58 7.51148
30.74 7.34595
30.9 7.26417
31.06 7.31345
31.22 7.22554
31.38 7.12127
31.54 7.24271
31.7 7.10819
31.86 7.02391
32.02 7.01319
32.18 7.22066
32.34 7.14611
32.5 7.27867
32.66 7.45925
32.82 8.24735
32.98 9.04946
33.14 8.82332
33.3 7.59705
33.46 6.97179
33.62 6.79673
33.78 6.65876
33.94 6.50698
34.1 6.47795
34.26 6.26112
34.42 6.15559
34.58 6.03984
34.74 6.33153
34.9 6.10392
35.06 6.16124
35.22 6.09329
35.38 6.27791
35.54 6.12257
35.7 5.99703
35.86 6.40552
36.02 6.57545
36.18 6.65773
36.34 6.33647
36.5 5.95818
36.66 5.82081
36.82 5.66056
36.98 5.65235
37.14 5.58832
37.3 5.62853
37.46 5.37994
37.62 5.49458
37.78 5.36009
37.94 5.40518
38.1 5.27105
38.26 5.2978
38.42 5.38057
38.58 5.26695
38.74 5.16032
38.9 5.19036
39.06 5.22694
39.22 5.11527
39.38 5.11256
39.54 5.12732
39.7 5.30411
39.86 5.3132
40.02 5.34342
40.18 5.27005
40.34 5.1085
40.5 5.26822
40.66 5.22116
40.82 5.18677
40.98 5.26244
41.14 5.20061
41.3 5.38456
41.46 5.51944
41.62 5.77085
41.78 6.28646
41.94 6.68484
42.1 6.48875
42.26 5.87954
42.42 5.3915
42.58 5.34142
42.74 5.24528
42.9 5.10176
43.06 5.15868
43.22 5.14266
43.38 4.95271
43.54 5.17198
43.7 5.10973
43.86 5.04378
44.02 5.16514
44.18 5.20395
44.34 5.43005
44.5 5.79171
44.66 5.91651
44.82 5.50357
44.98 5.18645
45.14 4.95273
45.3 4.88956
45.46 4.88626
45.62 4.91679
45.78 4.95272
45.94 4.85161
46.1 4.86991
46.26 4.82468
46.42 4.6802
46.58 4.79288
46.74 4.7712
46.9 4.85892
47.06 4.81502
47.22 4.76186
47.38 4.85022
47.54 4.72336
47.7 4.71426
47.86 4.56048
48.02 4.44794
48.18 4.65657
48.34 4.70326
48.5 4.65276
48.66 4.61887
48.82 4.58001
48.98 4.55999
49.14 4.48916
49.3 4.50732
49.46 4.65511
49.62 4.65399
49.78 4.57997
49.94 4.5003
50.1 4.53083
50.26 4.47451
50.42 4.43688
50.58 4.50522
50.74 4.54529
50.9 4.49482
51.06 4.47302
51.22 4.37884
51.38 4.58384
51.54 4.45839
51.7 4.76912
51.86 4.75369
52.02 4.61966
52.18 4.6101
52.34 4.50492
52.5 4.46327
52.66 4.46291
52.82 4.41822
52.98 4.31673
53.14 4.46321
53.3 4.47292
53.46 4.2584
53.62 4.34971
53.78 4.4431
53.94 4.46113
54.1 4.5429
54.26 4.37056
54.42 4.39723
54.58 4.44894
54.74 4.50587
54.9 4.26295
55.06 4.27328
55.22 4.46229
55.38 4.55672
55.54 4.71161
55.7 4.57706
55.86 4.50046
56.02 4.54331
56.18 4.70237
56.34 4.88716
56.5 5.28566
56.66 5.09755
56.82 5.36534
56.9 6.15943