Folder: PVtools/data/XRD_data/2018_8-7XRD (part 2)

File: 2018_8-7 FAGACs_5PEAI001_exported.xy
'Id: "" Comment: "Integrate frame 2018_8-7 FAGACs_5PEAI001.gfrmwith cursor Full Frame Cursor #8" Operator: "MAF user" Anode: "Cu" Scantype: "TwoTheta" TimePerStep: "90"
10.74 5.97955
10.9 5.39479
11.06 4.92031
11.22 4.84261
11.38 4.98612
11.54 4.79701
11.7 4.82925
11.86 4.92027
12.02 4.70293
12.18 4.74718
12.34 4.74237
12.5 4.73308
12.66 4.8895
12.82 4.84225
12.98 4.6824
13.14 4.91327
13.3 4.93414
13.46 4.89911
13.62 5.58361
13.78 4.98548
13.94 5.12758
14.1 5.43729
14.26 5.86145
14.42 8.70063
14.58 47.9168
14.74 150.951
14.9 7.88414
15.06 5.64399
15.22 5.37633
15.38 5.10155
15.54 4.98116
15.7 4.93135
15.86 4.94337
16.02 4.92563
16.18 4.96684
16.34 5.0319
16.5 5.02927
16.66 5.03217
16.82 4.96963
16.98 5.03288
17.14 5.10823
17.3 5.02893
17.46 5.0803
17.62 5.23421
17.78 5.36769
17.94 5.33949
18.1 5.37022
18.26 5.39482
18.42 5.50333
18.58 5.51394
18.74 5.53972
18.9 5.58967
19.06 5.71911
19.22 5.65416
19.38 5.78901
19.54 5.87823
19.7 5.94099
19.86 5.99593
20.02 5.99506
20.18 6.16712
20.34 6.17425
20.5 6.30629
20.66 6.91956
20.82 8.85041
20.98 7.14523
21.14 6.58338
21.3 6.62188
21.46 6.65692
21.62 6.76425
21.78 6.80547
21.94 6.82049
22.1 6.7473
22.26 7.00339
22.42 7.07825
22.58 7.5996
22.74 7.373
22.9 7.19881
23.06 7.3383
23.22 7.32143
23.38 7.39665
23.54 7.43141
23.7 7.4009
23.86 7.20939
24.02 7.39941
24.18 7.34234
24.34 7.37553
24.5 7.24702
24.66 7.35495
24.82 7.3639
24.98 7.35626
25.14 7.43588
25.3 7.74934
25.46 7.46314
25.62 7.3506
25.78 7.27422
25.94 7.56806
26.1 7.55084
26.26 7.45824
26.42 7.46782
26.58 7.44497
26.74 7.52207
26.9 7.75273
27.06 8.19779
27.22 8.78803
27.38 8.01255
27.54 7.58711
27.7 7.70696
27.86 8.18356
28.02 8.01609
28.18 7.78725
28.34 8.27778
28.5 8.25757
28.66 8.57273
28.82 10.3284
28.98 15.4302
29.14 31.9809
29.3 104.05
29.46 48.3388
29.62 9.73129
29.78 8.19682
29.94 7.9009
30.1 7.67948
30.26 7.50573
30.42 7.55285
30.58 7.4757
30.74 7.28178
30.9 7.12406
31.06 7.1737
31.22 7.18725
31.38 7.09312
31.54 7.00289
31.7 7.15511
31.86 6.99857
32.02 7.0427
32.18 7.36488
32.34 7.27451
32.5 7.08686
32.66 8.15528
32.82 10.9833
32.98 8.95545
33.14 6.72908
33.3 6.48216
33.46 6.55646
33.62 6.67212
33.78 6.58099
33.94 6.31813
34.1 6.29895
34.26 6.40506
34.42 6.1541
34.58 6.24476
34.74 6.3513
34.9 6.22129
35.06 6.2316
35.22 6.25954
35.38 5.89056
35.54 5.9808
35.7 5.96014
35.86 6.15597
36.02 6.31947
36.18 5.81374
36.34 5.86595
36.5 5.78477
36.66 5.75206
36.82 5.74984
36.98 5.89232
37.14 5.54355
37.3 5.62068
37.46 5.57543
37.62 5.32976
37.78 5.38172
37.94 5.37737
38.1 5.40825
38.26 5.35749
38.42 5.40239
38.58 5.55432
38.74 5.56776
38.9 5.32121
39.06 5.17183
39.22 5.23718
39.38 5.13894
39.54 5.17962
39.7 5.14678
39.86 5.27369
40.02 5.07594
40.18 5.24281
40.34 5.4267
40.5 5.33796
40.66 5.03943
40.82 5.08492
40.98 5.13979
41.14 4.94854
41.3 5.15776
41.46 5.04267
41.62 5.81911
41.78 6.03673
41.94 5.19724
42.1 5.15267
42.26 5.12545
42.42 5.08868
42.58 5.04345
42.74 4.95794
42.9 5.10522
43.06 5.01751
43.22 5.03955
43.38 4.99796
43.54 4.92372
43.7 5.06373
43.86 5.11334
44.02 5.17362
44.18 5.87243
44.34 7.13791
44.5 6.61338
44.66 5.25416
44.82 5.01237
44.98 4.94671
45.14 4.76147
45.3 4.82818
45.46 4.8212
45.62 4.71326
45.78 4.72473
45.94 4.62501
46.1 4.46986
46.26 4.47961
46.42 4.49747
46.58 4.64082
46.74 4.94659
46.9 4.79118
47.06 4.55039
47.22 4.52032
47.38 4.62752
47.54 4.52882
47.7 4.2937
47.86 4.46664
48.02 4.40799
48.18 4.29747
48.34 4.35161
48.5 4.43405
48.66 4.43038
48.82 4.38236
48.98 4.28885
49.14 4.33492
49.3 4.26927
49.46 4.35402
49.62 4.28199
49.78 4.39767
49.94 4.23578
50.1 4.27882
50.26 4.20439
50.42 4.19571
50.58 4.26877
50.74 4.324
50.9 4.27574
51.06 4.22271
51.22 4.2201
51.38 4.18384
51.54 4.30767
51.7 4.41532
51.86 4.3161
52.02 4.34663
52.18 4.15488
52.34 4.24972
52.5 4.1256
52.66 4.25995
52.82 4.05769
52.98 4.22901
53.14 4.26028
53.3 4.24156
53.46 4.12195
53.62 4.29002
53.78 4.30914
53.94 4.32776
54.1 4.22025
54.26 4.33876
54.42 4.43376
54.58 4.31601
54.74 4.42252
54.9 4.21857
55.06 4.24369
55.22 4.30295
55.38 4.23277
55.54 4.59778
55.7 4.4505
55.86 4.51602
56.02 4.58638
56.18 4.42425
56.34 4.60552
56.5 4.80499
56.66 4.81674
56.82 5.14697
56.9 3.25609

File: 2018_8-7 FAGACs_try2001_exported.xy
'Id: "" Comment: "Integrate frame 2018_8-7 FAGACs_try2001.gfrmwith cursor Full Frame Cursor #1" Operator: "MAF user" Anode: "Cu" Scantype: "TwoTheta" TimePerStep: "90"
10.74 6.10049
10.9 5.15311
11.06 4.99455
11.22 4.70654
11.38 4.75914
11.54 4.50542
11.7 4.67309
11.86 4.4827
12.02 4.80816
12.18 4.67552
12.34 4.6039
12.5 4.55066
12.66 4.67349
12.82 4.54106
12.98 4.57492
13.14 4.71986
13.3 4.69045
13.46 4.61297
13.62 4.67944
13.78 4.83374
13.94 4.83132
14.1 4.81647
14.26 4.9692
14.42 5.15783
14.58 6.13348
14.74 10.7101
14.9 9.83488
15.06 5.68413
15.22 4.98668
15.38 4.85525
15.54 4.74374
15.7 4.7
15.86 4.58546
16.02 4.80626
16.18 4.83934
16.34 4.81831
16.5 4.80805
16.66 4.76581
16.82 4.83547
16.98 4.95256
17.14 4.92002
17.3 4.84323
17.46 4.86684
17.62 4.94582
17.78 5.011
17.94 4.99796
18.1 5.10382
18.26 5.19613
18.42 5.22134
18.58 5.25516
18.74 5.29283
18.9 5.3139
19.06 5.44938
19.22 5.42658
19.38 5.62559
19.54 5.58548
19.7 5.63632
19.86 5.67287
20.02 5.73601
20.18 5.93114
20.34 6.00977
20.5 6.09398
20.66 6.40827
20.82 7.84803
20.98 9.75008
21.14 7.7874
21.3 6.62469
21.46 6.45269
21.62 6.4381
21.78 6.5372
21.94 6.73599
22.1 6.53391
22.26 6.60918
22.42 6.73596
22.58 7.01521
22.74 6.91294
22.9 6.85654
23.06 6.89815
23.22 7.178
23.38 7.21953
23.54 7.12841
23.7 7.30309
23.86 7.27966
24.02 7.23077
24.18 7.22928
24.34 7.16401
24.5 7.26206
24.66 7.29968
24.82 7.16496
24.98 7.12085
25.14 7.25428
25.3 7.57658
25.46 8.13794
25.62 7.9179
25.78 7.59408
25.94 7.40554
26.1 7.30918
26.26 7.34808
26.42 7.45004
26.58 7.24377
26.74 7.33874
26.9 7.39035
27.06 7.30942
27.22 7.23432
27.38 7.38008
27.54 7.31459
27.7 7.3435
27.86 7.10775
28.02 7.22066
28.18 7.23033
28.34 7.29484
28.5 7.29481
28.66 7.22402
28.82 7.34437
28.98 7.39517
29.14 7.45123
29.3 8.6424
29.46 12.0654
29.62 11.4196
29.78 8.31426
29.94 7.39014
30.1 7.12175
30.26 7.10598
30.42 7.1114
30.58 6.85311
30.74 6.81807
30.9 6.96684
31.06 6.71616
31.22 6.87198
31.38 6.81989
31.54 6.77103
31.7 6.93323
31.86 6.719
32.02 6.63195
32.18 6.77605
32.34 6.71657
32.5 6.88255
32.66 6.84426
32.82 7.35409
32.98 9.16585
33.14 9.33876
33.3 7.24809
33.46 6.63125
33.62 6.48962
33.78 6.27825
33.94 6.16275
34.1 6.0788
34.26 6.1645
34.42 6.06979
34.58 6.03586
34.74 5.84882
34.9 5.97365
35.06 6.04996
35.22 5.90337
35.38 5.6586
35.54 5.77387
35.7 5.76129
35.86 5.74576
36.02 6.02574
36.18 6.88697
36.34 6.33996
36.5 5.82643
36.66 5.44976
36.82 5.495
36.98 5.31386
37.14 5.23326
37.3 5.22548
37.46 5.26735
37.62 5.10252
37.78 5.24998
37.94 5.17276
38.1 5.19761
38.26 5.10045
38.42 5.23586
38.58 4.9484
38.74 5.00954
38.9 5.02443
39.06 5.06414
39.22 4.99477
39.38 5.03358
39.54 5.12165
39.7 5.1549
39.86 5.12514
40.02 5.00351
40.18 5.02299
40.34 5.02546
40.5 5.15759
40.66 5.23843
40.82 5.08033
40.98 5.16053
41.14 5.02761
41.3 4.9973
41.46 4.91133
41.62 5.11901
41.78 5.63028
41.94 6.88914
42.1 6.90884
42.26 5.59455
42.42 5.189
42.58 5.0226
42.74 4.96503
42.9 4.81996
43.06 4.82892
43.22 4.97997
43.38 4.97731
43.54 4.90987
43.7 4.77566
43.86 4.75707
44.02 4.79022
44.18 4.96622
44.34 4.92392
44.5 5.48507
44.66 6.0667
44.82 5.53964
44.98 5.07685
45.14 4.83147
45.3 4.82547
45.46 4.69358
45.62 4.72704
45.78 4.64498
45.94 4.89192
46.1 4.7789
46.26 4.66541
46.42 4.75269
46.58 4.56405
46.74 4.61684
46.9 4.69098
47.06 4.90578
47.22 4.73938
47.38 4.63419
47.54 4.6211
47.7 4.64297
47.86 4.54372
48.02 4.44054
48.18 4.53972
48.34 4.54418
48.5 4.57832
48.66 4.45969
48.82 4.47279
48.98 4.45056
49.14 4.39968
49.3 4.51423
49.46 4.4331
49.62 4.36753
49.78 4.42795
49.94 4.42731
50.1 4.5323
50.26 4.39953
50.42 4.34363
50.58 4.35243
50.74 4.36984
50.9 4.3899
51.06 4.38528
51.22 4.29249
51.38 4.4233
51.54 4.28159
51.7 4.50079
51.86 4.62464
52.02 4.71191
52.18 4.5552
52.34 4.33994
52.5 4.33886
52.66 4.35586
52.82 4.32636
52.98 4.22051
53.14 4.22988
53.3 4.24485
53.46 4.35032
53.62 4.36948
53.78 4.31577
53.94 4.2899
54.1 4.49033
54.26 4.48775
54.42 4.34753
54.58 4.23434
54.74 4.22116
54.9 4.24074
55.06 4.22684
55.22 4.15217
55.38 4.25818
55.54 4.6295
55.7 4.58974
55.86 4.64326
56.02 4.60971
56.18 4.70084
56.34 4.72401
56.5 5.01067
56.66 5.61024
56.82 5.29584
56.9 6.64757